onset	duration	trial_type	expected_response	given_response	response_time
 0.000	 3.000	instruction	0	0	 0.000
 3.000	 3.000	filler	0	0	 0.000
 6.000	 1.000	fixation_cross	0	0	 0.000
 7.000	 0.800	pres	1	0	 2147483.647
 7.800	 1.500	resp	0	0	 0.000
 9.300	 0.700	jitter	0	0	 0.000
 10.000	 1.000	fixation_cross	0	0	 0.000
 11.000	 0.800	pres	1	0	 2147483.647
 11.800	 1.500	resp	0	0	 0.000
 13.300	 0.600	jitter	0	0	 0.000
 13.900	 1.000	fixation_cross	0	0	 0.000
 14.900	 0.800	pres	1	0	 2147483.647
 15.700	 1.500	resp	0	0	 0.000
 17.200	 0.700	jitter	0	0	 0.000
 17.900	 1.000	fixation_cross	0	0	 0.000
 18.900	 0.800	pres	1	0	 2147483.647
 19.700	 1.500	resp	0	0	 0.000
 21.200	 0.400	jitter	0	0	 0.000
 21.600	 1.025	fixation_cross	0	0	 0.000
 22.625	 0.841	pres	1	0	 2147483.647
 23.466	 1.434	resp	0	0	 0.000
 24.900	 0.400	jitter	0	0	 0.000
 25.300	 1.000	fixation_cross	0	0	 0.000
 26.300	 0.800	pres	1	0	 2147483.647
 27.100	 1.500	resp	0	0	 0.000
 28.600	 0.800	jitter	0	0	 0.000
 29.400	 1.000	fixation_cross	0	0	 0.000
 30.400	 0.800	pres	1	0	 2147483.647
 31.200	 1.500	resp	0	0	 0.000
 32.700	 0.700	jitter	0	0	 0.000
 33.400	 1.000	fixation_cross	0	0	 0.000
 34.400	 0.800	pres	1	0	 2147483.647
 35.200	 1.501	resp	0	0	 0.000
 36.701	 0.399	jitter	0	0	 0.000
 37.100	 1.000	fixation_cross	0	0	 0.000
 38.100	 0.800	pres	1	0	 2147483.647
 38.900	 1.500	resp	0	0	 0.000
 40.400	 0.600	jitter	0	0	 0.000
 41.000	 1.000	fixation_cross	0	0	 0.000
 42.000	 0.800	pres	1	0	 2147483.647
 42.800	 1.500	resp	0	0	 0.000
 44.300	 0.800	jitter	0	0	 0.000
 45.100	 1.000	fixation_cross	0	0	 0.000
 46.100	 0.800	pres	1	0	 2147483.647
 46.900	 1.500	resp	0	0	 0.000
 48.400	 0.900	jitter	0	0	 0.000
 49.300	 1.000	fixation_cross	0	0	 0.000
 50.300	 0.800	pres	1	0	 2147483.647
 51.100	 1.500	resp	0	0	 0.000
 52.600	 0.800	jitter	0	0	 0.000
 53.400	 1.000	fixation_cross	0	0	 0.000
 54.400	 0.801	pres	1	0	 2147483.647
 55.201	 1.499	resp	0	0	 0.000
 56.700	 0.700	jitter	0	0	 0.000
 57.400	 1.000	fixation_cross	0	0	 0.000
 58.400	 0.800	pres	1	0	 2147483.647
 59.200	 1.500	resp	0	0	 0.000
 60.700	 0.500	jitter	0	0	 0.000
 61.200	 1.000	fixation_cross	0	0	 0.000
 62.200	 0.800	pres	1	0	 2147483.647
 63.000	 1.500	resp	0	0	 0.000
 64.500	 0.900	jitter	0	0	 0.000
 65.400	 1.000	fixation_cross	0	0	 0.000
 66.400	 0.800	pres	1	0	 2147483.647
 67.200	 1.500	resp	0	0	 0.000
 68.700	 0.400	jitter	0	0	 0.000
 69.100	 1.000	fixation_cross	0	0	 0.000
 70.100	 0.800	pres	1	0	 2147483.647
 70.900	 1.500	resp	0	0	 0.000
 72.400	 0.700	jitter	0	0	 0.000
 73.100	 1.000	fixation_cross	0	0	 0.000
 74.100	 0.800	pres	1	0	 2147483.647
 74.900	 1.500	resp	0	0	 0.000
 76.400	 0.900	jitter	0	0	 0.000
 77.300	 1.003	fixation_cross	0	0	 0.000
 78.303	 0.797	pres	1	0	 2147483.647
 79.100	 1.500	resp	0	0	 0.000
 80.600	 0.700	jitter	0	0	 0.000
 81.300	 1.000	fixation_cross	0	0	 0.000
 82.300	 0.800	pres	1	0	 2147483.647
 83.100	 1.500	resp	0	0	 0.000
 84.600	 0.700	jitter	0	0	 0.000
 85.300	 1.000	fixation_cross	0	0	 0.000
 86.300	 0.800	pres	1	0	 2147483.647
 87.100	 1.500	resp	0	0	 0.000
 88.600	 0.700	jitter	0	0	 0.000
 89.300	 1.000	fixation_cross	0	0	 0.000
 90.300	 0.800	pres	1	0	 2147483.647
 91.100	 1.500	resp	0	0	 0.000
 92.600	 0.800	jitter	0	0	 0.000
 93.400	 1.000	fixation_cross	0	0	 0.000
 94.400	 0.800	pres	1	0	 2147483.647
 95.200	 1.501	resp	0	0	 0.000
 96.701	 0.899	jitter	0	0	 0.000
 97.600	 1.000	fixation_cross	0	0	 0.000
 98.600	 0.800	pres	1	0	 2147483.647
 99.400	 1.500	resp	0	0	 0.000
 100.900	 0.500	jitter	0	0	 0.000
 101.400	 1.000	fixation_cross	0	0	 0.000
 102.400	 0.800	pres	1	0	 2147483.647
 103.200	 1.500	resp	0	0	 0.000
 104.700	 0.700	jitter	0	0	 0.000
 105.400	 1.000	fixation_cross	0	0	 0.000
 106.400	 0.800	pres	1	0	 2147483.647
 107.200	 1.500	resp	0	0	 0.000
 108.700	 0.600	jitter	0	0	 0.000
 109.300	 1.000	fixation_cross	0	0	 0.000
 110.300	 0.800	pres	1	0	 2147483.647
 111.100	 1.500	resp	0	0	 0.000
 112.600	 0.800	jitter	0	0	 0.000
 113.400	 1.000	fixation_cross	0	0	 0.000
 114.400	 0.800	pres	1	0	 2147483.647
 115.200	 1.501	resp	0	0	 0.000
 116.701	 0.800	jitter	0	0	 0.000
 117.501	 0.999	fixation_cross	0	0	 0.000
 118.500	 0.800	pres	1	0	 2147483.647
 119.300	 1.500	resp	0	0	 0.000
 120.800	 0.800	jitter	0	0	 0.000
 121.600	 1.000	fixation_cross	0	0	 0.000
 122.600	 0.800	pres	1	0	 2147483.647
 123.400	 1.500	resp	0	0	 0.000
 124.900	 0.400	jitter	0	0	 0.000
 125.300	 1.000	fixation_cross	0	0	 0.000
 126.300	 0.800	pres	1	0	 2147483.647
 127.100	 1.500	resp	0	0	 0.000
 128.600	 0.600	jitter	0	0	 0.000
 129.200	 1.000	fixation_cross	0	0	 0.000
 130.200	 0.800	pres	1	0	 2147483.647
 131.000	 1.500	resp	0	0	 0.000
 132.500	 0.600	jitter	0	0	 0.000
 133.100	 1.000	fixation_cross	0	0	 0.000
 134.100	 0.800	pres	1	0	 2147483.647
 134.900	 1.500	resp	0	0	 0.000
 136.400	 0.401	jitter	0	0	 0.000
 136.801	 0.999	fixation_cross	0	0	 0.000
 137.800	 0.800	pres	1	0	 2147483.647
 138.600	 1.500	resp	0	0	 0.000
 140.100	 0.400	jitter	0	0	 0.000
 140.500	 1.000	fixation_cross	0	0	 0.000
 141.500	 0.800	pres	1	0	 2147483.647
 142.300	 1.500	resp	0	0	 0.000
 143.800	 0.800	jitter	0	0	 0.000
 144.600	 1.000	fixation_cross	0	0	 0.000
 145.600	 0.800	pres	1	0	 2147483.647
 146.400	 1.500	resp	0	0	 0.000
 147.900	 0.800	jitter	0	0	 0.000
 148.700	 1.000	fixation_cross	0	0	 0.000
 149.700	 0.800	pres	1	0	 2147483.647
 150.500	 1.500	resp	0	0	 0.000
 152.000	 0.800	jitter	0	0	 0.000
 152.800	 1.000	fixation_cross	0	0	 0.000
 153.800	 0.800	pres	1	0	 2147483.647
 154.600	 1.500	resp	0	0	 0.000
 156.100	 0.900	jitter	0	0	 0.000
 157.000	 1.000	fixation_cross	0	0	 0.000
 158.000	 0.800	pres	1	0	 2147483.647
 158.800	 1.500	resp	0	0	 0.000
 160.300	 0.800	jitter	0	0	 0.000
 161.100	 1.000	fixation_cross	0	0	 0.000
 162.100	 0.800	pres	1	0	 2147483.647
 162.900	 1.500	resp	0	0	 0.000
 164.400	 0.400	jitter	0	0	 0.000
 164.800	 1.000	fixation_cross	0	0	 0.000
 165.800	 0.800	pres	1	0	 2147483.647
 166.600	 1.500	resp	0	0	 0.000
 168.100	 0.800	jitter	0	0	 0.000
 168.900	 1.000	fixation_cross	0	0	 0.000
 169.900	 0.800	pres	1	0	 2147483.647
 170.700	 1.500	resp	0	0	 0.000
 172.200	 0.900	jitter	0	0	 0.000
 173.100	 1.000	fixation_cross	0	0	 0.000
 174.100	 0.800	pres	1	0	 2147483.647
 174.900	 1.500	resp	0	0	 0.000
 176.400	 0.401	jitter	0	0	 0.000
 176.801	 1.000	fixation_cross	0	0	 0.000
 177.801	 0.799	pres	1	0	 2147483.647
 178.600	 1.500	resp	0	0	 0.000
 180.100	 0.500	jitter	0	0	 0.000
 180.600	 1.000	fixation_cross	0	0	 0.000
 181.600	 0.800	pres	1	0	 2147483.647
 182.400	 1.500	resp	0	0	 0.000
 183.900	 0.500	jitter	0	0	 0.000
 184.400	 1.000	fixation_cross	0	0	 0.000
 185.400	 0.800	pres	1	0	 2147483.647
 186.200	 1.500	resp	0	0	 0.000
 187.700	 0.900	jitter	0	0	 0.000
 188.600	 1.000	fixation_cross	0	0	 0.000
 189.600	 0.800	pres	1	0	 2147483.647
 190.400	 1.500	resp	0	0	 0.000
 191.900	 0.900	jitter	0	0	 0.000
 192.800	 1.000	fixation_cross	0	0	 0.000
 193.800	 0.800	pres	1	0	 2147483.647
 194.600	 1.500	resp	0	0	 0.000
 196.100	 0.700	jitter	0	0	 0.000
 196.800	 1.000	fixation_cross	0	0	 0.000
 197.800	 0.800	pres	1	0	 2147483.647
 198.600	 1.500	resp	0	0	 0.000
 200.100	 0.700	jitter	0	0	 0.000
 200.800	 1.000	fixation_cross	0	0	 0.000
 201.800	 0.800	pres	1	0	 2147483.647
 202.600	 1.500	resp	0	0	 0.000
 204.100	 0.600	jitter	0	0	 0.000
 204.700	 1.000	fixation_cross	0	0	 0.000
 205.700	 0.800	pres	1	0	 2147483.647
 206.500	 1.500	resp	0	0	 0.000
 208.000	 0.900	jitter	0	0	 0.000
 208.900	 1.000	fixation_cross	0	0	 0.000
 209.900	 0.800	pres	1	0	 2147483.647
 210.700	 1.500	resp	0	0	 0.000
 212.200	 0.500	jitter	0	0	 0.000
 212.700	 1.000	fixation_cross	0	0	 0.000
 213.700	 0.800	pres	1	0	 2147483.647
 214.500	 1.500	resp	0	0	 0.000
 216.000	 0.500	jitter	0	0	 0.000
 216.500	 1.000	fixation_cross	0	0	 0.000
 217.500	 0.800	pres	1	0	 2147483.647
 218.300	 1.501	resp	0	0	 0.000
 219.801	 0.599	jitter	0	0	 0.000
 220.400	 1.001	fixation_cross	0	0	 0.000
 221.401	 0.799	pres	1	0	 2147483.647
 222.200	 1.500	resp	0	0	 0.000
 223.700	 0.500	jitter	0	0	 0.000
 224.200	 1.000	fixation_cross	0	0	 0.000
 225.200	 0.800	pres	1	0	 2147483.647
 226.000	 1.500	resp	0	0	 0.000
 227.500	 0.700	jitter	0	0	 0.000
 228.200	 1.000	fixation_cross	0	0	 0.000
 229.200	 0.800	pres	1	0	 2147483.647
 230.000	 1.500	resp	0	0	 0.000
 231.500	 0.700	jitter	0	0	 0.000
 232.200	 1.000	fixation_cross	0	0	 0.000
 233.200	 0.800	pres	1	0	 2147483.647
 234.000	 1.500	resp	0	0	 0.000
 235.500	 0.500	jitter	0	0	 0.000
 236.000	 1.000	fixation_cross	0	0	 0.000
 237.000	 0.800	pres	1	0	 2147483.647
 237.800	 1.500	resp	0	0	 0.000
 239.300	 0.500	jitter	0	0	 0.000
 239.800	 1.000	fixation_cross	0	0	 0.000
 240.800	 0.800	pres	1	0	 2147483.647
 241.600	 1.500	resp	0	0	 0.000
 243.100	 0.800	jitter	0	0	 0.000
 243.900	 1.000	fixation_cross	0	0	 0.000
 244.900	 0.800	pres	1	0	 2147483.647
 245.700	 1.500	resp	0	0	 0.000
 247.200	 0.400	jitter	0	0	 0.000
 247.600	 1.000	fixation_cross	0	0	 0.000
 248.600	 0.800	pres	1	0	 2147483.647
 249.400	 1.500	resp	0	0	 0.000
 250.900	 0.900	jitter	0	0	 0.000
 251.800	 1.000	fixation_cross	0	0	 0.000
 252.800	 0.800	pres	1	0	 2147483.647
 253.600	 1.500	resp	0	0	 0.000
 255.100	 0.900	jitter	0	0	 0.000
 256.000	 1.000	fixation_cross	0	0	 0.000
 257.000	 0.800	pres	1	0	 2147483.647
 257.800	 1.500	resp	0	0	 0.000
 259.300	 0.400	jitter	0	0	 0.000
 259.700	 1.000	fixation_cross	0	0	 0.000
 260.700	 0.800	pres	1	0	 2147483.647
 261.500	 1.501	resp	0	0	 0.000
 263.001	 0.499	jitter	0	0	 0.000
 263.500	 1.000	fixation_cross	0	0	 0.000
 264.500	 0.800	pres	1	0	 2147483.647
 265.300	 1.500	resp	0	0	 0.000
 266.800	 0.700	jitter	0	0	 0.000
 267.500	 1.000	fixation_cross	0	0	 0.000
 268.500	 0.800	pres	1	0	 2147483.647
 269.300	 1.500	resp	0	0	 0.000
 270.800	 0.900	jitter	0	0	 0.000
 271.700	 1.000	fixation_cross	0	0	 0.000
 272.700	 0.800	pres	1	0	 2147483.647
 273.500	 1.500	resp	0	0	 0.000
 275.000	 0.400	jitter	0	0	 0.000
 275.400	 1.000	fixation_cross	0	0	 0.000
 276.400	 0.800	pres	1	0	 2147483.647
 277.200	 1.500	resp	0	0	 0.000
 278.700	 0.500	jitter	0	0	 0.000
 279.200	 1.000	fixation_cross	0	0	 0.000
 280.200	 0.800	pres	1	0	 2147483.647
 281.000	 1.500	resp	0	0	 0.000
 282.500	 0.400	jitter	0	0	 0.000
 282.900	 1.000	fixation_cross	0	0	 0.000
 283.900	 0.800	pres	1	0	 2147483.647
 284.700	 1.500	resp	0	0	 0.000
 286.200	 0.900	jitter	0	0	 0.000
 287.100	 1.000	fixation_cross	0	0	 0.000
 288.100	 0.800	pres	1	0	 2147483.647
 288.900	 1.500	resp	0	0	 0.000
 290.400	 0.600	jitter	0	0	 0.000
 291.000	 1.000	fixation_cross	0	0	 0.000
 292.000	 0.800	pres	1	0	 2147483.647
 292.800	 1.500	resp	0	0	 0.000
 294.300	 0.600	jitter	0	0	 0.000
 294.900	 1.000	fixation_cross	0	0	 0.000
 295.900	 0.800	pres	1	0	 2147483.647
 296.700	 1.500	resp	0	0	 0.000
 298.200	 0.600	jitter	0	0	 0.000
 298.800	 1.000	fixation_cross	0	0	 0.000
 299.800	 0.800	pres	1	0	 2147483.647
 300.600	 1.500	resp	0	0	 0.000
 302.100	 0.500	jitter	0	0	 0.000
 302.600	 1.000	fixation_cross	0	0	 0.000
 303.600	 0.800	pres	1	0	 2147483.647
 304.400	 1.500	resp	0	0	 0.000
 305.900	 0.700	jitter	0	0	 0.000
 306.600	 1.000	fixation_cross	0	0	 0.000
 307.600	 0.800	pres	1	0	 2147483.647
 308.400	 1.500	resp	0	0	 0.000
 309.900	 0.600	jitter	0	0	 0.000
 310.500	 1.000	fixation_cross	0	0	 0.000
 311.500	 0.800	pres	1	0	 2147483.647
 312.300	 1.500	resp	0	0	 0.000
 313.800	 0.400	jitter	0	0	 0.000
 314.200	 1.000	fixation_cross	0	0	 0.000
 315.200	 0.800	pres	1	0	 2147483.647
 316.000	 1.500	resp	0	0	 0.000
 317.500	 0.900	jitter	0	0	 0.000
 318.400	 1.000	fixation_cross	0	0	 0.000
 319.400	 0.800	pres	1	0	 2147483.647
 320.200	 1.500	resp	0	0	 0.000
 321.700	 0.600	jitter	0	0	 0.000
 322.300	 1.000	fixation_cross	0	0	 0.000
 323.300	 0.800	pres	1	0	 2147483.647
 324.100	 1.500	resp	0	0	 0.000
 325.600	 0.900	jitter	0	0	 0.000
 326.500	 1.000	fixation_cross	0	0	 0.000
 327.500	 0.800	pres	1	0	 2147483.647
 328.300	 1.500	resp	0	0	 0.000
 329.800	 0.500	jitter	0	0	 0.000
 330.300	 1.001	fixation_cross	0	0	 0.000
 331.301	 0.799	pres	1	0	 2147483.647
 332.100	 1.500	resp	0	0	 0.000
 333.600	 0.600	jitter	0	0	 0.000
 334.200	 1.000	fixation_cross	0	0	 0.000
 335.200	 0.800	pres	1	0	 2147483.647
 336.000	 1.500	resp	0	0	 0.000
 337.500	 0.800	jitter	0	0	 0.000
 338.300	 1.000	fixation_cross	0	0	 0.000
 339.300	 0.800	pres	1	0	 2147483.647
 340.100	 1.500	resp	0	0	 0.000
 341.600	 0.500	jitter	0	0	 0.000
 342.100	 1.000	fixation_cross	0	0	 0.000
 343.100	 0.800	pres	1	0	 2147483.647
 343.900	 1.500	resp	0	0	 0.000
 345.400	 0.500	jitter	0	0	 0.000
 345.900	 1.000	fixation_cross	0	0	 0.000
 346.900	 0.800	pres	1	0	 2147483.647
 347.700	 1.500	resp	0	0	 0.000
 349.200	 0.400	jitter	0	0	 0.000
 349.600	 1.000	fixation_cross	0	0	 0.000
 350.600	 0.800	pres	1	0	 2147483.647
 351.400	 1.500	resp	0	0	 0.000
 352.900	 0.600	jitter	0	0	 0.000
 353.500	 1.000	fixation_cross	0	0	 0.000
 354.500	 0.800	pres	1	0	 2147483.647
 355.300	 1.500	resp	0	0	 0.000
 356.800	 0.800	jitter	0	0	 0.000
 357.600	 1.000	fixation_cross	0	0	 0.000
 358.600	 0.800	pres	1	0	 2147483.647
 359.400	 1.500	resp	0	0	 0.000
 360.900	 0.600	jitter	0	0	 0.000
