onset	duration	trial_type	expected_response	given_response	response_time
 0.000	 3.000	instruction	0	0	 0.000
 3.000	 3.000	filler	0	0	 0.000
 6.000	 1.000	fixation_cross	0	0	 0.000
 7.000	 0.800	pres	1	0	 2147483.647
 7.800	 1.500	resp	0	0	 0.000
 9.300	 0.500	jitter	0	0	 0.000
 9.800	 1.000	fixation_cross	0	0	 0.000
 10.800	 0.800	pres	1	0	 2147483.647
 11.600	 1.500	resp	0	0	 0.000
 13.100	 0.400	jitter	0	0	 0.000
 13.500	 1.000	fixation_cross	0	0	 0.000
 14.500	 0.801	pres	1	0	 2147483.647
 15.301	 1.499	resp	0	0	 0.000
 16.800	 0.700	jitter	0	0	 0.000
 17.500	 1.000	fixation_cross	0	0	 0.000
 18.500	 0.800	pres	1	0	 2147483.647
 19.300	 1.500	resp	0	0	 0.000
 20.800	 0.900	jitter	0	0	 0.000
 21.700	 1.000	fixation_cross	0	0	 0.000
 22.700	 0.800	pres	1	0	 2147483.647
 23.500	 1.500	resp	0	0	 0.000
 25.000	 0.400	jitter	0	0	 0.000
 25.400	 1.000	fixation_cross	0	0	 0.000
 26.400	 0.800	pres	1	0	 2147483.647
 27.200	 1.500	resp	0	0	 0.000
 28.700	 0.400	jitter	0	0	 0.000
 29.100	 1.000	fixation_cross	0	0	 0.000
 30.100	 0.800	pres	1	0	 2147483.647
 30.900	 1.500	resp	0	0	 0.000
 32.400	 0.600	jitter	0	0	 0.000
 33.000	 1.000	fixation_cross	0	0	 0.000
 34.000	 0.800	pres	1	0	 2147483.647
 34.800	 1.500	resp	0	0	 0.000
 36.300	 0.700	jitter	0	0	 0.000
 37.000	 1.000	fixation_cross	0	0	 0.000
 38.000	 0.800	pres	1	0	 2147483.647
 38.800	 1.501	resp	0	0	 0.000
 40.301	 0.399	jitter	0	0	 0.000
 40.700	 1.000	fixation_cross	0	0	 0.000
 41.700	 0.800	pres	1	0	 2147483.647
 42.500	 1.500	resp	0	0	 0.000
 44.000	 0.400	jitter	0	0	 0.000
 44.400	 1.000	fixation_cross	0	0	 0.000
 45.400	 0.800	pres	1	0	 2147483.647
 46.200	 1.500	resp	0	0	 0.000
 47.700	 0.800	jitter	0	0	 0.000
 48.500	 1.000	fixation_cross	0	0	 0.000
 49.500	 0.800	pres	1	0	 2147483.647
 50.300	 1.500	resp	0	0	 0.000
 51.800	 0.500	jitter	0	0	 0.000
 52.300	 1.000	fixation_cross	0	0	 0.000
 53.300	 0.800	pres	1	0	 2147483.647
 54.100	 1.500	resp	0	0	 0.000
 55.600	 0.500	jitter	0	0	 0.000
 56.100	 1.000	fixation_cross	0	0	 0.000
 57.100	 0.800	pres	1	0	 2147483.647
 57.900	 1.500	resp	0	0	 0.000
 59.400	 0.900	jitter	0	0	 0.000
 60.300	 1.000	fixation_cross	0	0	 0.000
 61.300	 0.800	pres	1	0	 2147483.647
 62.100	 1.500	resp	0	0	 0.000
 63.600	 0.600	jitter	0	0	 0.000
 64.200	 1.000	fixation_cross	0	0	 0.000
 65.200	 0.800	pres	1	0	 2147483.647
 66.000	 1.500	resp	0	0	 0.000
 67.500	 0.500	jitter	0	0	 0.000
 68.000	 1.000	fixation_cross	0	0	 0.000
 69.000	 0.800	pres	1	0	 2147483.647
 69.800	 1.500	resp	0	0	 0.000
 71.300	 0.500	jitter	0	0	 0.000
 71.800	 1.000	fixation_cross	0	0	 0.000
 72.800	 0.800	pres	1	0	 2147483.647
 73.600	 1.500	resp	0	0	 0.000
 75.100	 0.800	jitter	0	0	 0.000
 75.900	 1.000	fixation_cross	0	0	 0.000
 76.900	 0.800	pres	1	0	 2147483.647
 77.700	 1.500	resp	0	0	 0.000
 79.200	 0.600	jitter	0	0	 0.000
 79.800	 1.000	fixation_cross	0	0	 0.000
 80.800	 0.800	pres	1	0	 2147483.647
 81.600	 1.500	resp	0	0	 0.000
 83.100	 0.700	jitter	0	0	 0.000
 83.800	 1.000	fixation_cross	0	0	 0.000
 84.800	 0.800	pres	1	0	 2147483.647
 85.600	 1.500	resp	0	0	 0.000
 87.100	 0.700	jitter	0	0	 0.000
 87.800	 1.000	fixation_cross	0	0	 0.000
 88.800	 0.800	pres	1	0	 2147483.647
 89.600	 1.500	resp	0	0	 0.000
 91.100	 0.800	jitter	0	0	 0.000
 91.900	 1.000	fixation_cross	0	0	 0.000
 92.900	 0.800	pres	1	0	 2147483.647
 93.700	 1.500	resp	0	0	 0.000
 95.200	 0.900	jitter	0	0	 0.000
 96.100	 1.000	fixation_cross	0	0	 0.000
 97.100	 0.800	pres	1	0	 2147483.647
 97.900	 1.500	resp	0	0	 0.000
 99.400	 0.400	jitter	0	0	 0.000
 99.800	 1.000	fixation_cross	0	0	 0.000
 100.800	 0.800	pres	1	0	 2147483.647
 101.600	 1.500	resp	0	0	 0.000
 103.100	 0.500	jitter	0	0	 0.000
 103.600	 1.000	fixation_cross	0	0	 0.000
 104.600	 0.802	pres	1	0	 2147483.647
 105.402	 1.498	resp	0	0	 0.000
 106.900	 0.400	jitter	0	0	 0.000
 107.300	 1.001	fixation_cross	0	0	 0.000
 108.301	 0.800	pres	1	0	 2147483.647
 109.101	 1.499	resp	0	0	 0.000
 110.600	 0.800	jitter	0	0	 0.000
 111.400	 1.000	fixation_cross	0	0	 0.000
 112.400	 0.800	pres	1	0	 2147483.647
 113.200	 1.500	resp	0	0	 0.000
 114.700	 0.800	jitter	0	0	 0.000
 115.500	 1.000	fixation_cross	0	0	 0.000
 116.500	 0.801	pres	1	0	 2147483.647
 117.301	 1.499	resp	0	0	 0.000
 118.800	 0.800	jitter	0	0	 0.000
 119.600	 1.000	fixation_cross	0	0	 0.000
 120.600	 0.800	pres	1	0	 2147483.647
 121.400	 1.500	resp	0	0	 0.000
 122.900	 0.500	jitter	0	0	 0.000
 123.400	 1.000	fixation_cross	0	0	 0.000
 124.400	 0.800	pres	1	0	 2147483.647
 125.200	 1.500	resp	0	0	 0.000
 126.700	 0.700	jitter	0	0	 0.000
 127.400	 1.000	fixation_cross	0	0	 0.000
 128.400	 0.800	pres	1	0	 2147483.647
 129.200	 1.500	resp	0	0	 0.000
 130.700	 0.901	jitter	0	0	 0.000
 131.601	 1.000	fixation_cross	0	0	 0.000
 132.601	 0.799	pres	1	0	 2147483.647
 133.400	 1.500	resp	0	0	 0.000
 134.900	 0.600	jitter	0	0	 0.000
 135.500	 1.000	fixation_cross	0	0	 0.000
 136.500	 0.800	pres	1	0	 2147483.647
 137.300	 1.500	resp	0	0	 0.000
 138.800	 0.600	jitter	0	0	 0.000
 139.400	 1.000	fixation_cross	0	0	 0.000
 140.400	 0.800	pres	1	0	 2147483.647
 141.200	 1.500	resp	0	0	 0.000
 142.700	 0.900	jitter	0	0	 0.000
 143.600	 1.000	fixation_cross	0	0	 0.000
 144.600	 0.800	pres	1	0	 2147483.647
 145.400	 1.500	resp	0	0	 0.000
 146.900	 0.500	jitter	0	0	 0.000
 147.400	 1.000	fixation_cross	0	0	 0.000
 148.400	 0.800	pres	1	0	 2147483.647
 149.200	 1.500	resp	0	0	 0.000
 150.700	 0.700	jitter	0	0	 0.000
 151.400	 1.000	fixation_cross	0	0	 0.000
 152.400	 0.800	pres	1	0	 2147483.647
 153.200	 1.500	resp	0	0	 0.000
 154.700	 0.400	jitter	0	0	 0.000
 155.100	 1.000	fixation_cross	0	0	 0.000
 156.100	 0.800	pres	1	0	 2147483.647
 156.900	 1.500	resp	0	0	 0.000
 158.400	 0.800	jitter	0	0	 0.000
 159.200	 1.000	fixation_cross	0	0	 0.000
 160.200	 0.800	pres	1	0	 2147483.647
 161.000	 1.500	resp	0	0	 0.000
 162.500	 0.900	jitter	0	0	 0.000
 163.400	 1.000	fixation_cross	0	0	 0.000
 164.400	 0.800	pres	1	0	 2147483.647
 165.200	 1.500	resp	0	0	 0.000
 166.700	 0.900	jitter	0	0	 0.000
 167.600	 1.000	fixation_cross	0	0	 0.000
 168.600	 0.800	pres	1	0	 2147483.647
 169.400	 1.500	resp	0	0	 0.000
 170.900	 0.900	jitter	0	0	 0.000
 171.800	 1.000	fixation_cross	0	0	 0.000
 172.800	 0.800	pres	1	0	 2147483.647
 173.600	 1.500	resp	0	0	 0.000
 175.100	 0.900	jitter	0	0	 0.000
 176.000	 1.000	fixation_cross	0	0	 0.000
 177.000	 0.800	pres	1	0	 2147483.647
 177.800	 1.501	resp	0	0	 0.000
 179.301	 0.799	jitter	0	0	 0.000
 180.100	 1.000	fixation_cross	0	0	 0.000
 181.100	 0.800	pres	1	0	 2147483.647
 181.900	 1.500	resp	0	0	 0.000
 183.400	 0.700	jitter	0	0	 0.000
 184.100	 1.000	fixation_cross	0	0	 0.000
 185.100	 0.800	pres	1	0	 2147483.647
 185.900	 1.500	resp	0	0	 0.000
 187.400	 0.600	jitter	0	0	 0.000
 188.000	 1.000	fixation_cross	0	0	 0.000
 189.000	 0.800	pres	1	0	 2147483.647
 189.800	 1.500	resp	0	0	 0.000
 191.300	 0.400	jitter	0	0	 0.000
 191.700	 1.000	fixation_cross	0	0	 0.000
 192.700	 0.800	pres	1	0	 2147483.647
 193.500	 1.500	resp	0	0	 0.000
 195.000	 0.500	jitter	0	0	 0.000
 195.500	 1.000	fixation_cross	0	0	 0.000
 196.500	 0.800	pres	1	0	 2147483.647
 197.300	 1.500	resp	0	0	 0.000
 198.800	 0.600	jitter	0	0	 0.000
 199.400	 1.000	fixation_cross	0	0	 0.000
 200.400	 0.800	pres	1	0	 2147483.647
 201.200	 1.500	resp	0	0	 0.000
 202.700	 0.700	jitter	0	0	 0.000
 203.400	 1.000	fixation_cross	0	0	 0.000
 204.400	 0.800	pres	1	0	 2147483.647
 205.200	 1.500	resp	0	0	 0.000
 206.700	 0.500	jitter	0	0	 0.000
 207.200	 1.000	fixation_cross	0	0	 0.000
 208.200	 0.800	pres	1	0	 2147483.647
 209.000	 1.500	resp	0	0	 0.000
 210.500	 0.900	jitter	0	0	 0.000
 211.400	 1.000	fixation_cross	0	0	 0.000
 212.400	 0.800	pres	1	0	 2147483.647
 213.200	 1.500	resp	0	0	 0.000
 214.700	 0.700	jitter	0	0	 0.000
 215.400	 1.000	fixation_cross	0	0	 0.000
 216.400	 0.800	pres	1	0	 2147483.647
 217.200	 1.500	resp	0	0	 0.000
 218.700	 0.600	jitter	0	0	 0.000
 219.300	 1.002	fixation_cross	0	0	 0.000
 220.302	 0.798	pres	1	0	 2147483.647
 221.100	 1.500	resp	0	0	 0.000
 222.600	 0.800	jitter	0	0	 0.000
 223.400	 1.000	fixation_cross	0	0	 0.000
 224.400	 0.800	pres	1	0	 2147483.647
 225.200	 1.500	resp	0	0	 0.000
 226.700	 0.900	jitter	0	0	 0.000
 227.600	 1.000	fixation_cross	0	0	 0.000
 228.600	 0.800	pres	1	0	 2147483.647
 229.400	 1.500	resp	0	0	 0.000
 230.900	 0.800	jitter	0	0	 0.000
 231.700	 1.000	fixation_cross	0	0	 0.000
 232.700	 0.800	pres	1	0	 2147483.647
 233.500	 1.500	resp	0	0	 0.000
 235.000	 0.700	jitter	0	0	 0.000
 235.700	 1.000	fixation_cross	0	0	 0.000
 236.700	 0.800	pres	1	0	 2147483.647
 237.500	 1.500	resp	0	0	 0.000
 239.000	 0.800	jitter	0	0	 0.000
 239.800	 1.000	fixation_cross	0	0	 0.000
 240.800	 0.800	pres	1	0	 2147483.647
 241.600	 1.500	resp	0	0	 0.000
 243.100	 0.400	jitter	0	0	 0.000
 243.500	 1.000	fixation_cross	0	0	 0.000
 244.500	 0.800	pres	1	0	 2147483.647
 245.300	 1.500	resp	0	0	 0.000
 246.800	 0.700	jitter	0	0	 0.000
 247.500	 1.000	fixation_cross	0	0	 0.000
 248.500	 0.800	pres	1	0	 2147483.647
 249.300	 1.500	resp	0	0	 0.000
 250.800	 0.700	jitter	0	0	 0.000
 251.500	 1.000	fixation_cross	0	0	 0.000
 252.500	 0.801	pres	1	0	 2147483.647
 253.301	 1.499	resp	0	0	 0.000
 254.800	 0.700	jitter	0	0	 0.000
 255.500	 1.000	fixation_cross	0	0	 0.000
 256.500	 0.800	pres	1	0	 2147483.647
 257.300	 1.500	resp	0	0	 0.000
 258.800	 0.500	jitter	0	0	 0.000
 259.300	 1.000	fixation_cross	0	0	 0.000
 260.300	 0.800	pres	1	0	 2147483.647
 261.100	 1.500	resp	0	0	 0.000
 262.600	 0.800	jitter	0	0	 0.000
 263.400	 1.000	fixation_cross	0	0	 0.000
 264.400	 0.800	pres	1	0	 2147483.647
 265.200	 1.500	resp	0	0	 0.000
 266.700	 0.601	jitter	0	0	 0.000
 267.301	 0.999	fixation_cross	0	0	 0.000
 268.300	 0.800	pres	1	0	 2147483.647
 269.100	 1.500	resp	0	0	 0.000
 270.600	 0.500	jitter	0	0	 0.000
 271.100	 1.000	fixation_cross	0	0	 0.000
 272.100	 0.800	pres	1	0	 2147483.647
 272.900	 1.500	resp	0	0	 0.000
 274.400	 0.600	jitter	0	0	 0.000
 275.000	 1.000	fixation_cross	0	0	 0.000
 276.000	 0.800	pres	1	0	 2147483.647
 276.800	 1.500	resp	0	0	 0.000
 278.300	 0.500	jitter	0	0	 0.000
 278.800	 1.000	fixation_cross	0	0	 0.000
 279.800	 0.800	pres	1	0	 2147483.647
 280.600	 1.500	resp	0	0	 0.000
 282.100	 0.500	jitter	0	0	 0.000
 282.600	 1.000	fixation_cross	0	0	 0.000
 283.600	 0.800	pres	1	0	 2147483.647
 284.400	 1.500	resp	0	0	 0.000
 285.900	 0.400	jitter	0	0	 0.000
 286.300	 1.000	fixation_cross	0	0	 0.000
 287.300	 0.800	pres	1	0	 2147483.647
 288.100	 1.500	resp	0	0	 0.000
 289.600	 0.600	jitter	0	0	 0.000
 290.200	 1.000	fixation_cross	0	0	 0.000
 291.200	 0.800	pres	1	0	 2147483.647
 292.000	 1.500	resp	0	0	 0.000
 293.500	 0.800	jitter	0	0	 0.000
 294.300	 1.000	fixation_cross	0	0	 0.000
 295.300	 0.800	pres	1	0	 2147483.647
 296.100	 1.500	resp	0	0	 0.000
 297.600	 0.600	jitter	0	0	 0.000
 298.200	 1.000	fixation_cross	0	0	 0.000
 299.200	 0.800	pres	1	0	 2147483.647
 300.000	 1.500	resp	0	0	 0.000
 301.500	 0.600	jitter	0	0	 0.000
 302.100	 1.000	fixation_cross	0	0	 0.000
 303.100	 0.800	pres	1	0	 2147483.647
 303.900	 1.500	resp	0	0	 0.000
 305.400	 0.400	jitter	0	0	 0.000
 305.800	 1.000	fixation_cross	0	0	 0.000
 306.800	 0.800	pres	1	0	 2147483.647
 307.600	 1.500	resp	0	0	 0.000
 309.100	 0.700	jitter	0	0	 0.000
 309.800	 1.000	fixation_cross	0	0	 0.000
 310.800	 0.800	pres	1	0	 2147483.647
 311.600	 1.500	resp	0	0	 0.000
 313.100	 0.800	jitter	0	0	 0.000
 313.900	 1.000	fixation_cross	0	0	 0.000
 314.900	 0.800	pres	1	0	 2147483.647
 315.700	 1.500	resp	0	0	 0.000
 317.200	 0.900	jitter	0	0	 0.000
 318.100	 1.000	fixation_cross	0	0	 0.000
 319.100	 0.800	pres	1	0	 2147483.647
 319.900	 1.500	resp	0	0	 0.000
 321.400	 0.900	jitter	0	0	 0.000
 322.300	 1.000	fixation_cross	0	0	 0.000
 323.300	 0.800	pres	1	0	 2147483.647
 324.100	 1.500	resp	0	0	 0.000
 325.600	 0.500	jitter	0	0	 0.000
 326.100	 1.001	fixation_cross	0	0	 0.000
 327.101	 0.799	pres	1	0	 2147483.647
 327.900	 1.500	resp	0	0	 0.000
 329.400	 0.900	jitter	0	0	 0.000
 330.300	 1.000	fixation_cross	0	0	 0.000
 331.300	 0.800	pres	1	0	 2147483.647
 332.100	 1.500	resp	0	0	 0.000
 333.600	 0.400	jitter	0	0	 0.000
 334.000	 1.000	fixation_cross	0	0	 0.000
 335.000	 0.800	pres	1	0	 2147483.647
 335.800	 1.500	resp	0	0	 0.000
 337.300	 0.400	jitter	0	0	 0.000
 337.700	 1.000	fixation_cross	0	0	 0.000
 338.700	 0.800	pres	1	0	 2147483.647
 339.500	 1.500	resp	0	0	 0.000
 341.000	 0.600	jitter	0	0	 0.000
 341.600	 1.000	fixation_cross	0	0	 0.000
 342.600	 0.800	pres	1	0	 2147483.647
 343.400	 1.500	resp	0	0	 0.000
 344.900	 0.800	jitter	0	0	 0.000
 345.700	 1.000	fixation_cross	0	0	 0.000
 346.700	 0.800	pres	1	0	 2147483.647
 347.500	 1.500	resp	0	0	 0.000
 349.000	 0.901	jitter	0	0	 0.000
 349.901	 0.999	fixation_cross	0	0	 0.000
 350.900	 0.800	pres	1	0	 2147483.647
 351.700	 1.500	resp	0	0	 0.000
 353.200	 0.601	jitter	0	0	 0.000
 353.801	 0.999	fixation_cross	0	0	 0.000
 354.800	 0.800	pres	1	0	 2147483.647
 355.600	 1.500	resp	0	0	 0.000
 357.100	 0.401	jitter	0	0	 0.000
 357.501	 0.999	fixation_cross	0	0	 0.000
 358.500	 0.800	pres	1	0	 2147483.647
 359.300	 1.500	resp	0	0	 0.000
 360.800	 0.700	jitter	0	0	 0.000
