onset	duration	trial_type	expected_response	given_response	response_time
 0.000	 7.102	instruction	0	0	 0.000
 7.102	 3.000	filler	0	0	 0.000
 10.102	 1.000	fixation_cross	0	0	 0.000
 11.102	 0.800	pres	1	0	 2147483.647
 11.902	 1.500	resp	0	0	 0.000
 13.402	 0.700	jitter	0	0	 0.000
 14.102	 1.000	fixation_cross	0	0	 0.000
 15.102	 0.800	pres	1	0	 2147483.647
 15.902	 1.500	resp	0	0	 0.000
 17.402	 0.900	jitter	0	0	 0.000
 18.302	 1.001	fixation_cross	0	0	 0.000
 19.303	 0.799	pres	1	0	 2147483.647
 20.102	 1.500	resp	0	0	 0.000
 21.602	 0.800	jitter	0	0	 0.000
 22.402	 1.000	fixation_cross	0	0	 0.000
 23.402	 0.800	pres	1	0	 2147483.647
 24.202	 1.501	resp	0	0	 0.000
 25.703	 0.399	jitter	0	0	 0.000
 26.102	 1.000	fixation_cross	0	0	 0.000
 27.102	 0.800	pres	1	0	 2147483.647
 27.902	 1.500	resp	0	0	 0.000
 29.402	 0.500	jitter	0	0	 0.000
 29.902	 1.000	fixation_cross	0	0	 0.000
 30.902	 0.800	pres	1	0	 2147483.647
 31.702	 1.501	resp	0	0	 0.000
 33.203	 0.699	jitter	0	0	 0.000
 33.902	 1.000	fixation_cross	0	0	 0.000
 34.902	 0.800	pres	1	0	 2147483.647
 35.702	 1.500	resp	0	0	 0.000
 37.202	 0.900	jitter	0	0	 0.000
 38.102	 1.000	fixation_cross	0	0	 0.000
 39.102	 0.800	pres	1	0	 2147483.647
 39.902	 1.500	resp	0	0	 0.000
 41.402	 0.700	jitter	0	0	 0.000
 42.102	 1.000	fixation_cross	0	0	 0.000
 43.102	 0.800	pres	1	0	 2147483.647
 43.902	 1.500	resp	0	0	 0.000
 45.402	 0.600	jitter	0	0	 0.000
 46.002	 1.000	fixation_cross	0	0	 0.000
 47.002	 0.800	pres	1	0	 2147483.647
 47.802	 1.500	resp	0	0	 0.000
 49.302	 0.400	jitter	0	0	 0.000
 49.702	 1.000	fixation_cross	0	0	 0.000
 50.702	 0.800	pres	1	0	 2147483.647
 51.502	 1.500	resp	0	0	 0.000
 53.002	 0.400	jitter	0	0	 0.000
 53.402	 1.000	fixation_cross	0	0	 0.000
 54.402	 0.800	pres	1	0	 2147483.647
 55.202	 1.500	resp	0	0	 0.000
 56.702	 0.800	jitter	0	0	 0.000
 57.502	 1.000	fixation_cross	0	0	 0.000
 58.502	 0.800	pres	1	0	 2147483.647
 59.302	 1.500	resp	0	0	 0.000
 60.802	 0.400	jitter	0	0	 0.000
 61.202	 1.000	fixation_cross	0	0	 0.000
 62.202	 0.800	pres	1	0	 2147483.647
 63.002	 1.500	resp	0	0	 0.000
 64.502	 0.600	jitter	0	0	 0.000
 65.102	 1.000	fixation_cross	0	0	 0.000
 66.102	 0.800	pres	1	0	 2147483.647
 66.902	 1.501	resp	0	0	 0.000
 68.403	 0.699	jitter	0	0	 0.000
 69.102	 1.000	fixation_cross	0	0	 0.000
 70.102	 0.800	pres	1	0	 2147483.647
 70.902	 1.500	resp	0	0	 0.000
 72.402	 0.900	jitter	0	0	 0.000
 73.302	 1.000	fixation_cross	0	0	 0.000
 74.302	 0.800	pres	1	0	 2147483.647
 75.102	 1.500	resp	0	0	 0.000
 76.602	 0.800	jitter	0	0	 0.000
 77.402	 1.000	fixation_cross	0	0	 0.000
 78.402	 0.800	pres	1	0	 2147483.647
 79.202	 1.500	resp	0	0	 0.000
 80.702	 0.900	jitter	0	0	 0.000
 81.602	 1.000	fixation_cross	0	0	 0.000
 82.602	 0.800	pres	1	0	 2147483.647
 83.402	 1.500	resp	0	0	 0.000
 84.902	 0.901	jitter	0	0	 0.000
 85.803	 0.999	fixation_cross	0	0	 0.000
 86.802	 0.800	pres	1	0	 2147483.647
 87.602	 1.500	resp	0	0	 0.000
 89.102	 0.700	jitter	0	0	 0.000
 89.802	 1.000	fixation_cross	0	0	 0.000
 90.802	 0.800	pres	1	0	 2147483.647
 91.602	 1.500	resp	0	0	 0.000
 93.102	 0.400	jitter	0	0	 0.000
 93.502	 1.000	fixation_cross	0	0	 0.000
 94.502	 0.800	pres	1	0	 2147483.647
 95.302	 1.500	resp	0	0	 0.000
 96.802	 0.400	jitter	0	0	 0.000
 97.202	 1.000	fixation_cross	0	0	 0.000
 98.202	 0.800	pres	1	0	 2147483.647
 99.002	 1.500	resp	0	0	 0.000
 100.502	 0.500	jitter	0	0	 0.000
 101.002	 1.000	fixation_cross	0	0	 0.000
 102.002	 0.800	pres	1	0	 2147483.647
 102.802	 1.500	resp	0	0	 0.000
 104.302	 0.700	jitter	0	0	 0.000
 105.002	 1.000	fixation_cross	0	0	 0.000
 106.002	 0.800	pres	1	0	 2147483.647
 106.802	 1.500	resp	0	0	 0.000
 108.302	 0.900	jitter	0	0	 0.000
 109.202	 1.000	fixation_cross	0	0	 0.000
 110.202	 0.800	pres	1	0	 2147483.647
 111.002	 1.500	resp	0	0	 0.000
 112.502	 0.400	jitter	0	0	 0.000
 112.902	 1.000	fixation_cross	0	0	 0.000
 113.902	 0.800	pres	1	0	 2147483.647
 114.702	 1.500	resp	0	0	 0.000
 116.202	 0.900	jitter	0	0	 0.000
 117.102	 1.000	fixation_cross	0	0	 0.000
 118.102	 0.800	pres	1	0	 2147483.647
 118.902	 1.500	resp	0	0	 0.000
 120.402	 0.401	jitter	0	0	 0.000
 120.803	 0.999	fixation_cross	0	0	 0.000
 121.802	 0.800	pres	1	0	 2147483.647
 122.602	 1.500	resp	0	0	 0.000
 124.102	 0.800	jitter	0	0	 0.000
 124.902	 1.000	fixation_cross	0	0	 0.000
 125.902	 0.800	pres	1	0	 2147483.647
 126.702	 1.500	resp	0	0	 0.000
 128.202	 0.600	jitter	0	0	 0.000
 128.802	 1.000	fixation_cross	0	0	 0.000
 129.802	 0.800	pres	1	0	 2147483.647
 130.602	 1.500	resp	0	0	 0.000
 132.102	 0.400	jitter	0	0	 0.000
 132.502	 1.000	fixation_cross	0	0	 0.000
 133.502	 0.800	pres	1	0	 2147483.647
 134.302	 1.500	resp	0	0	 0.000
 135.802	 0.700	jitter	0	0	 0.000
 136.502	 1.000	fixation_cross	0	0	 0.000
 137.502	 0.800	pres	1	0	 2147483.647
 138.302	 1.500	resp	0	0	 0.000
 139.802	 0.500	jitter	0	0	 0.000
 140.302	 1.000	fixation_cross	0	0	 0.000
 141.302	 0.800	pres	1	0	 2147483.647
 142.102	 1.500	resp	0	0	 0.000
 143.602	 0.800	jitter	0	0	 0.000
 144.402	 1.000	fixation_cross	0	0	 0.000
 145.402	 0.800	pres	1	0	 2147483.647
 146.202	 1.500	resp	0	0	 0.000
 147.702	 0.600	jitter	0	0	 0.000
 148.302	 1.000	fixation_cross	0	0	 0.000
 149.302	 0.800	pres	1	0	 2147483.647
 150.102	 1.500	resp	0	0	 0.000
 151.602	 0.600	jitter	0	0	 0.000
 152.202	 1.000	fixation_cross	0	0	 0.000
 153.202	 0.800	pres	1	0	 2147483.647
 154.002	 1.500	resp	0	0	 0.000
 155.502	 0.500	jitter	0	0	 0.000
 156.002	 1.000	fixation_cross	0	0	 0.000
 157.002	 0.800	pres	1	0	 2147483.647
 157.802	 1.500	resp	0	0	 0.000
 159.302	 0.500	jitter	0	0	 0.000
 159.802	 1.000	fixation_cross	0	0	 0.000
 160.802	 0.800	pres	1	0	 2147483.647
 161.602	 1.500	resp	0	0	 0.000
 163.102	 0.800	jitter	0	0	 0.000
 163.902	 1.000	fixation_cross	0	0	 0.000
 164.902	 0.800	pres	1	0	 2147483.647
 165.702	 1.500	resp	0	0	 0.000
 167.202	 0.600	jitter	0	0	 0.000
 167.802	 1.000	fixation_cross	0	0	 0.000
 168.802	 0.800	pres	1	0	 2147483.647
 169.602	 1.500	resp	0	0	 0.000
 171.102	 0.500	jitter	0	0	 0.000
 171.602	 1.000	fixation_cross	0	0	 0.000
 172.602	 0.800	pres	1	0	 2147483.647
 173.402	 1.500	resp	0	0	 0.000
 174.902	 0.501	jitter	0	0	 0.000
 175.403	 0.999	fixation_cross	0	0	 0.000
 176.402	 0.800	pres	1	0	 2147483.647
 177.202	 1.500	resp	0	0	 0.000
 178.702	 0.900	jitter	0	0	 0.000
 179.602	 1.000	fixation_cross	0	0	 0.000
 180.602	 0.800	pres	1	0	 2147483.647
 181.402	 1.500	resp	0	0	 0.000
 182.902	 0.600	jitter	0	0	 0.000
 183.502	 1.000	fixation_cross	0	0	 0.000
 184.502	 0.800	pres	1	0	 2147483.647
 185.302	 1.500	resp	0	0	 0.000
 186.802	 0.400	jitter	0	0	 0.000
 187.202	 1.000	fixation_cross	0	0	 0.000
 188.202	 0.800	pres	1	0	 2147483.647
 189.002	 1.500	resp	0	0	 0.000
 190.502	 0.400	jitter	0	0	 0.000
 190.902	 1.000	fixation_cross	0	0	 0.000
 191.902	 0.800	pres	1	0	 2147483.647
 192.702	 1.500	resp	0	0	 0.000
 194.202	 0.500	jitter	0	0	 0.000
 194.702	 1.000	fixation_cross	0	0	 0.000
 195.702	 0.801	pres	1	0	 2147483.647
 196.503	 1.499	resp	0	0	 0.000
 198.002	 0.500	jitter	0	0	 0.000
 198.502	 1.000	fixation_cross	0	0	 0.000
 199.502	 0.800	pres	1	0	 2147483.647
 200.302	 1.500	resp	0	0	 0.000
 201.802	 0.500	jitter	0	0	 0.000
 202.302	 1.000	fixation_cross	0	0	 0.000
 203.302	 0.800	pres	1	0	 2147483.647
 204.102	 1.500	resp	0	0	 0.000
 205.602	 0.800	jitter	0	0	 0.000
 206.402	 1.000	fixation_cross	0	0	 0.000
 207.402	 0.800	pres	1	0	 2147483.647
 208.202	 1.500	resp	0	0	 0.000
 209.702	 0.900	jitter	0	0	 0.000
 210.602	 1.000	fixation_cross	0	0	 0.000
 211.602	 0.800	pres	1	0	 2147483.647
 212.402	 1.500	resp	0	0	 0.000
 213.902	 0.400	jitter	0	0	 0.000
 214.302	 1.000	fixation_cross	0	0	 0.000
 215.302	 0.800	pres	1	0	 2147483.647
 216.102	 1.500	resp	0	0	 0.000
 217.602	 0.700	jitter	0	0	 0.000
 218.302	 1.000	fixation_cross	0	0	 0.000
 219.302	 0.800	pres	1	0	 2147483.647
 220.102	 1.500	resp	0	0	 0.000
 221.602	 0.900	jitter	0	0	 0.000
 222.502	 1.000	fixation_cross	0	0	 0.000
 223.502	 0.800	pres	1	0	 2147483.647
 224.302	 1.500	resp	0	0	 0.000
 225.802	 0.900	jitter	0	0	 0.000
 226.702	 1.000	fixation_cross	0	0	 0.000
 227.702	 0.800	pres	1	0	 2147483.647
 228.502	 1.500	resp	0	0	 0.000
 230.002	 0.800	jitter	0	0	 0.000
 230.802	 1.000	fixation_cross	0	0	 0.000
 231.802	 0.800	pres	1	0	 2147483.647
 232.602	 1.500	resp	0	0	 0.000
 234.102	 0.500	jitter	0	0	 0.000
 234.602	 1.000	fixation_cross	0	0	 0.000
 235.602	 0.800	pres	1	0	 2147483.647
 236.402	 1.500	resp	0	0	 0.000
 237.902	 0.900	jitter	0	0	 0.000
 238.802	 1.000	fixation_cross	0	0	 0.000
 239.802	 0.800	pres	1	0	 2147483.647
 240.602	 1.501	resp	0	0	 0.000
 242.103	 0.699	jitter	0	0	 0.000
 242.802	 1.000	fixation_cross	0	0	 0.000
 243.802	 0.800	pres	1	0	 2147483.647
 244.602	 1.500	resp	0	0	 0.000
 246.102	 0.400	jitter	0	0	 0.000
 246.502	 1.000	fixation_cross	0	0	 0.000
 247.502	 0.800	pres	1	0	 2147483.647
 248.302	 1.500	resp	0	0	 0.000
 249.802	 0.600	jitter	0	0	 0.000
 250.402	 1.000	fixation_cross	0	0	 0.000
 251.402	 0.800	pres	1	0	 2147483.647
 252.202	 1.500	resp	0	0	 0.000
 253.702	 0.500	jitter	0	0	 0.000
 254.202	 1.000	fixation_cross	0	0	 0.000
 255.202	 0.800	pres	1	0	 2147483.647
 256.002	 1.500	resp	0	0	 0.000
 257.502	 0.900	jitter	0	0	 0.000
 258.402	 1.000	fixation_cross	0	0	 0.000
 259.402	 0.800	pres	1	0	 2147483.647
 260.202	 1.500	resp	0	0	 0.000
 261.702	 0.800	jitter	0	0	 0.000
 262.502	 1.001	fixation_cross	0	0	 0.000
 263.503	 0.799	pres	1	0	 2147483.647
 264.302	 1.500	resp	0	0	 0.000
 265.802	 0.400	jitter	0	0	 0.000
 266.202	 1.000	fixation_cross	0	0	 0.000
 267.202	 0.800	pres	1	0	 2147483.647
 268.002	 1.501	resp	0	0	 0.000
 269.503	 0.699	jitter	0	0	 0.000
 270.202	 1.000	fixation_cross	0	0	 0.000
 271.202	 0.800	pres	1	0	 2147483.647
 272.002	 1.500	resp	0	0	 0.000
 273.502	 0.700	jitter	0	0	 0.000
 274.202	 1.000	fixation_cross	0	0	 0.000
 275.202	 0.800	pres	1	0	 2147483.647
 276.002	 1.501	resp	0	0	 0.000
 277.503	 0.699	jitter	0	0	 0.000
 278.202	 1.000	fixation_cross	0	0	 0.000
 279.202	 0.800	pres	1	0	 2147483.647
 280.002	 1.500	resp	0	0	 0.000
 281.502	 0.900	jitter	0	0	 0.000
 282.402	 1.000	fixation_cross	0	0	 0.000
 283.402	 0.800	pres	1	0	 2147483.647
 284.202	 1.500	resp	0	0	 0.000
 285.702	 0.500	jitter	0	0	 0.000
 286.202	 1.000	fixation_cross	0	0	 0.000
 287.202	 0.800	pres	1	0	 2147483.647
 288.002	 1.500	resp	0	0	 0.000
 289.502	 0.800	jitter	0	0	 0.000
 290.302	 1.000	fixation_cross	0	0	 0.000
 291.302	 0.800	pres	1	0	 2147483.647
 292.102	 1.500	resp	0	0	 0.000
 293.602	 0.600	jitter	0	0	 0.000
 294.202	 1.001	fixation_cross	0	0	 0.000
 295.203	 0.799	pres	1	0	 2147483.647
 296.002	 1.500	resp	0	0	 0.000
 297.502	 0.701	jitter	0	0	 0.000
 298.203	 1.000	fixation_cross	0	0	 0.000
 299.203	 0.799	pres	1	0	 2147483.647
 300.002	 1.500	resp	0	0	 0.000
 301.502	 0.600	jitter	0	0	 0.000
 302.102	 1.000	fixation_cross	0	0	 0.000
 303.102	 0.800	pres	1	0	 2147483.647
 303.902	 1.500	resp	0	0	 0.000
 305.402	 0.700	jitter	0	0	 0.000
 306.102	 1.000	fixation_cross	0	0	 0.000
 307.102	 0.800	pres	1	0	 2147483.647
 307.902	 1.500	resp	0	0	 0.000
 309.402	 0.800	jitter	0	0	 0.000
 310.202	 1.000	fixation_cross	0	0	 0.000
 311.202	 0.800	pres	1	0	 2147483.647
 312.002	 1.500	resp	0	0	 0.000
 313.502	 0.400	jitter	0	0	 0.000
 313.902	 1.000	fixation_cross	0	0	 0.000
 314.902	 0.800	pres	1	0	 2147483.647
 315.702	 1.500	resp	0	0	 0.000
 317.202	 0.600	jitter	0	0	 0.000
 317.802	 1.000	fixation_cross	0	0	 0.000
 318.802	 0.800	pres	1	0	 2147483.647
 319.602	 1.500	resp	0	0	 0.000
 321.102	 0.500	jitter	0	0	 0.000
 321.602	 1.000	fixation_cross	0	0	 0.000
 322.602	 0.800	pres	1	0	 2147483.647
 323.402	 1.500	resp	0	0	 0.000
 324.902	 0.800	jitter	0	0	 0.000
 325.702	 1.000	fixation_cross	0	0	 0.000
 326.702	 0.800	pres	1	0	 2147483.647
 327.502	 1.500	resp	0	0	 0.000
 329.002	 0.800	jitter	0	0	 0.000
 329.802	 1.000	fixation_cross	0	0	 0.000
 330.802	 0.800	pres	1	0	 2147483.647
 331.602	 1.500	resp	0	0	 0.000
 333.102	 0.800	jitter	0	0	 0.000
 333.902	 1.000	fixation_cross	0	0	 0.000
 334.902	 0.800	pres	1	0	 2147483.647
 335.702	 1.500	resp	0	0	 0.000
 337.202	 0.900	jitter	0	0	 0.000
 338.102	 1.000	fixation_cross	0	0	 0.000
 339.102	 0.800	pres	1	0	 2147483.647
 339.902	 1.500	resp	0	0	 0.000
 341.402	 0.600	jitter	0	0	 0.000
 342.002	 1.000	fixation_cross	0	0	 0.000
 343.002	 0.801	pres	1	0	 2147483.647
 343.803	 1.499	resp	0	0	 0.000
 345.302	 0.600	jitter	0	0	 0.000
 345.902	 1.195	fixation_cross	0	0	 0.000
 347.097	 1.337	pres	1	0	 2147483.647
 348.434	 1.368	resp	0	0	 0.000
 349.802	 0.600	jitter	0	0	 0.000
 350.402	 1.000	fixation_cross	0	0	 0.000
 351.402	 0.800	pres	1	0	 2147483.647
 352.202	 1.500	resp	0	0	 0.000
 353.702	 0.500	jitter	0	0	 0.000
 354.202	 1.000	fixation_cross	0	0	 0.000
 355.202	 0.800	pres	1	0	 2147483.647
 356.002	 1.500	resp	0	0	 0.000
 357.502	 0.600	jitter	0	0	 0.000
 358.102	 1.000	fixation_cross	0	0	 0.000
 359.102	 0.800	pres	1	0	 2147483.647
 359.902	 1.500	resp	0	0	 0.000
 361.402	 0.800	jitter	0	0	 0.000
 362.202	 1.000	fixation_cross	0	0	 0.000
 363.202	 0.800	pres	1	0	 2147483.647
 364.002	 1.500	resp	0	0	 0.000
 365.502	 0.709	jitter	0	0	 0.000
